Folder: crypto-network/data-master/csv

Note: README.md
# crypto-network
In this project, network analysis has been employed to study the dynamic evolution of the cryptocurrency market from 1 January 2020 to 1 January 2024. This approach facilitates an in-depth exploration of the marketâ€™s response to several major events during this period, including the coronavirus disease of 2019 (COVID-19) pandemic and the bankruptcy of FTX, one of the largest cryptocurrency exchanges. The study focuses on analysing key network characteristics of the cryptocurrency market, namely: (a) degree centrality, (b) betweenness centrality, (c) clustering coefficient and (d) average path length. Additionally, we explore the co-movements within the market, categorising cryptocurrencies into functional groups for a comparative analysis. This approach enables us to examine shifts in the cryptocurrency network topology, providing insights into how different groups of cryptocurrencies interact with and influence each other. Through this network analysis, we aim to shed light on the intricate interrelationships among cryptocurrencies. The findings of this study are intended to provide investors with valuable insights, potentially guiding the development of more informed and strategic diversification strategies in the dynamic and evolving landscape of the cryptocurrency market. The findings of this project is published in the Journal of Interdisciplinary Economics in a paper titled [Dynamic Evolution Analysis of Cryptocurrency Market: A Network Science Study](https://journals.sagepub.com/doi/10.1177/02601079241265744).

## Required IDE and Libraries
The code in this repository was written and tested in PyCharm 2020.3 using the following libraries (the dependencies of each library is not mentioned).

Library | Version
--------------|------------
networkx* | 2.6.3
pycoingecko** | 2.2.0
matplotlib | 3.5.0
numpy | 1.20.3
pandas | 1.4.1
scipy | 1.7.3

\* https://networkx.org
\** https://github.com/man-c/pycoingecko

## How to Run
To run the code, simply run the main.py file under the main directory. The figures are generated under its corresponding  "pics" folder. Before running the main.py script for the first time, downloader.py could be used for getting cryptocurrency prices .csv files using CoinGeckoAPI API.

## Results
Sample Outputs:

|||
--------------|------------
|![Cryptocurrencies network topology](https://github.com/ziarrdan/crypto-network/blob/main/pics/composite0.png?raw=true) |

File: xrd.csv
,Date,Open
0,2021-08-22 20:00:00,0.112498
1,2021-08-23 20:00:00,0.112498
2,2021-08-24 20:00:00,0.107402
3,2021-08-25 20:00:00,0.115102
4,2021-08-26 20:00:00,0.115338
5,2021-08-27 20:00:00,0.123587
6,2021-08-28 20:00:00,0.124977
7,2021-08-29 20:00:00,0.132622
8,2021-08-30 20:00:00,0.109519
9,2021-08-31 20:00:00,0.100557
10,2021-09-01 20:00:00,0.100605
11,2021-09-02 20:00:00,0.101487
12,2021-09-03 20:00:00,0.104346
13,2021-09-04 20:00:00,0.113063
14,2021-09-05 20:00:00,0.107101
15,2021-09-06 20:00:00,0.110772
16,2021-09-07 20:00:00,0.0994243
17,2021-09-08 20:00:00,0.101047
18,2021-09-09 20:00:00,0.0970139
19,2021-09-10 20:00:00,0.0886907
20,2021-09-11 20:00:00,0.0905455
21,2021-09-12 20:00:00,0.0905481
22,2021-09-13 20:00:00,0.0927367
23,2021-09-14 20:00:00,0.11285
24,2021-09-15 20:00:00,0.0954372
25,2021-09-16 20:00:00,0.115636
26,2021-09-17 20:00:00,0.148486
27,2021-09-18 20:00:00,0.139321
28,2021-09-19 20:00:00,0.146628
29,2021-09-20 20:00:00,0.128798
30,2021-09-21 20:00:00,0.125795
31,2021-09-22 20:00:00,0.115442
32,2021-09-23 20:00:00,0.116358
33,2021-09-24 20:00:00,0.103692
34,2021-09-25 20:00:00,0.110801
35,2021-09-26 20:00:00,0.11272
36,2021-09-27 20:00:00,0.130837
37,2021-09-28 20:00:00,0.111071
38,2021-09-29 20:00:00,0.110711
39,2021-09-30 20:00:00,0.112237
40,2021-10-01 20:00:00,0.11906
41,2021-10-02 20:00:00,0.122573
42,2021-10-03 20:00:00,0.123944
43,2021-10-04 20:00:00,0.138962
44,2021-10-05 20:00:00,0.132558
45,2021-10-06 20:00:00,0.119931
46,2021-10-07 20:00:00,0.11748
47,2021-10-08 20:00:00,0.128724
48,2021-10-09 20:00:00,0.132092
49,2021-10-10 20:00:00,0.128922
50,2021-10-11 20:00:00,0.123838
51,2021-10-12 20:00:00,0.118964
52,2021-10-13 20:00:00,0.111616
53,2021-10-14 20:00:00,0.123613
54,2021-10-15 20:00:00,0.117222
55,2021-10-16 20:00:00,0.113343
56,2021-10-17 20:00:00,0.109577
57,2021-10-18 20:00:00,0.107521
58,2021-10-19 20:00:00,0.104928
59,2021-10-20 20:00:00,0.101472
60,2021-10-21 20:00:00,0.134276
61,2021-10-22 20:00:00,0.129064
62,2021-10-23 20:00:00,0.120753
63,2021-10-24 20:00:00,0.122115
64,2021-10-25 20:00:00,0.119923
65,2021-10-26 20:00:00,0.108856
66,2021-10-27 20:00:00,0.108245
67,2021-10-28 20:00:00,0.112789
68,2021-10-29 20:00:00,0.11361
69,2021-10-30 20:00:00,0.122282
70,2021-10-31 20:00:00,0.116418
71,2021-11-01 20:00:00,0.129172
72,2021-11-02 20:00:00,0.136275
73,2021-11-03 20:00:00,0.157684
74,2021-11-04 20:00:00,0.167811
75,2021-11-05 20:00:00,0.24552
76,2021-11-06 20:00:00,0.278506
77,2021-11-07 19:00:00,0.331971
78,2021-11-08 19:00:00,0.50409
79,2021-11-09 19:00:00,0.417133
80,2021-11-10 19:00:00,0.390844
81,2021-11-11 19:00:00,0.462537
82,2021-11-12 19:00:00,0.460245
83,2021-11-13 19:00:00,0.530136
84,2021-11-14 19:00:00,0.621823
85,2021-11-15 19:00:00,0.557738
86,2021-11-16 19:00:00,0.505324
87,2021-11-17 19:00:00,0.464269
88,2021-11-18 19:00:00,0.400115
89,2021-11-19 19:00:00,0.477002
90,2021-11-20 19:00:00,0.436525
91,2021-11-21 19:00:00,0.47782
92,2021-11-22 19:00:00,0.452234
93,2021-11-23 19:00:00,0.408909
94,2021-11-24 19:00:00,0.39134
95,2021-11-25 19:00:00,0.435218
96,2021-11-26 19:00:00,0.409268
97,2021-11-27 19:00:00,0.38425
98,2021-11-28 19:00:00,0.407278
99,2021-11-29 19:00:00,0.441063
100,2021-11-30 19:00:00,0.441433
101,2021-12-01 19:00:00,0.394913
102,2021-12-02 19:00:00,0.436693
103,2021-12-03 19:00:00,0.397287
104,2021-12-04 19:00:00,0.359704
105,2021-12-05 19:00:00,0.329683
106,2021-12-06 19:00:00,0.303874
107,2021-12-07 19:00:00,0.296094
108,2021-12-08 19:00:00,0.283692
109,2021-12-09 19:00:00,0.256384
110,2021-12-10 19:00:00,0.23907
111,2021-12-11 19:00:00,0.265811
112,2021-12-12 19:00:00,0.294137
113,2021-12-13 19:00:00,0.228395
114,2021-12-14 19:00:00,0.240684
115,2021-12-15 19:00:00,0.280259
116,2021-12-16 19:00:00,0.2806
117,2021-12-17 19:00:00,0.26265
118,2021-12-18 19:00:00,0.259835
119,2021-12-19 19:00:00,0.250837
120,2021-12-20 19:00:00,0.245426
121,2021-12-21 19:00:00,0.268346
122,2021-12-22 19:00:00,0.27611
123,2021-12-23 19:00:00,0.269094
124,2021-12-24 19:00:00,0.288878
125,2021-12-25 19:00:00,0.288479
126,2021-12-26 19:00:00,0.285169
127,2021-12-27 19:00:00,0.314796
128,2021-12-28 19:00:00,0.290577
129,2021-12-29 19:00:00,0.278456
130,2021-12-30 19:00:00,0.255111
131,2021-12-31 19:00:00,0.246102
132,2022-01-01 19:00:00,0.263949
133,2022-01-02 19:00:00,0.257092
134,2022-01-03 19:00:00,0.24756
135,2022-01-04 19:00:00,0.249368
136,2022-01-05 19:00:00,0.223999
137,2022-01-06 19:00:00,0.236421
138,2022-01-07 19:00:00,0.212552
139,2022-01-08 19:00:00,0.20695
140,2022-01-09 19:00:00,0.216401
141,2022-01-10 19:00:00,0.209998
142,2022-01-11 19:00:00,0.212172
143,2022-01-12 19:00:00,0.23408
144,2022-01-13 19:00:00,0.226874
145,2022-01-14 19:00:00,0.23226
146,2022-01-15 19:00:00,0.241171
147,2022-01-16 19:00:00,0.242849
148,2022-01-17 19:00:00,0.218603
149,2022-01-18 19:00:00,0.206372
150,2022-01-19 19:00:00,0.207423
151,2022-01-20 19:00:00,0.206165
152,2022-01-21 19:00:00,0.162676
153,2022-01-22 19:00:00,0.162967
154,2022-01-23 19:00:00,0.177654
155,2022-01-24 19:00:00,0.167342
156,2022-01-25 19:00:00,0.160015
157,2022-01-26 19:00:00,0.163643
158,2022-01-27 19:00:00,0.162168
159,2022-01-28 19:00:00,0.165304
160,2022-01-29 19:00:00,0.1725
161,2022-01-30 19:00:00,0.168182
162,2022-01-31 19:00:00,0.174042
163,2022-02-01 19:00:00,0.175195
164,2022-02-02 19:00:00,0.165495
165,2022-02-03 19:00:00,0.162495
166,2022-02-04 19:00:00,0.174566
167,2022-02-05 19:00:00,0.170968
168,2022-02-06 19:00:00,0.168325
169,2022-02-07 19:00:00,0.192239
170,2022-02-08 19:00:00,0.201489
171,2022-02-09 19:00:00,0.204913
172,2022-02-10 19:00:00,0.189427
173,2022-02-11 19:00:00,0.176105
174,2022-02-12 19:00:00,0.17602
175,2022-02-13 19:00:00,0.174415
176,2022-02-14 19:00:00,0.173912
177,2022-02-15 19:00:00,0.180178
178,2022-02-16 19:00:00,0.178052
179,2022-02-17 19:00:00,0.160163
180,2022-02-18 19:00:00,0.14975
181,2022-02-19 19:00:00,0.147184
182,2022-02-20 19:00:00,0.133811
183,2022-02-21 19:00:00,0.123815
184,2022-02-22 19:00:00,0.132271
185,2022-02-23 19:00:00,0.123708
186,2022-02-24 19:00:00,0.107238
187,2022-02-25 19:00:00,0.127415
188,2022-02-26 19:00:00,0.148021
189,2022-02-27 19:00:00,0.138266
190,2022-02-28 19:00:00,0.149264
191,2022-03-01 19:00:00,0.14272
192,2022-03-02 19:00:00,0.138673
193,2022-03-03 19:00:00,0.132694
194,2022-03-04 19:00:00,0.12874
195,2022-03-05 19:00:00,0.141654
196,2022-03-06 19:00:00,0.136188
197,2022-03-06 22:50:21,0.128069